Wavelength (nm),Reflectance (%)
444,44.81
448,34.98
452,31.37
456,30.41
460,28.37
464,31.84
468,33.19
472,35.85
476,36.37
480,34.57
484,33.96
488,36.53
492,38.44
496,39.72
500,40.18
504,40.33
508,40.2
512,40.07
516,40.49
520,41.57
524,41.98
528,42.3
532,42.12
536,42.76
540,44.3
544,44.27
548,44.33
552,44.63
556,44.2
560,43.87
564,43.19
568,42.91
572,42.84
576,42.11
580,41.8
584,41.43
588,41.12
592,40.87
596,40.24
600,39.4
604,38.22
608,37.2
612,36
616,35.26
620,34.39
624,33.88
628,32.67
632,31.62
636,30.44
640,29.47
644,28.58
648,27.68
652,26.23
656,25.6
660,24.29
664,23.22
668,22.3
672,21.77
676,21.03
680,20
684,19.16
688,18.64
692,18
696,17.38
700,16.88
704,16.54
708,15.94
712,15.4
716,15.07
720,14.83
724,14.78
728,14.86
732,14.81
736,14.64
740,14.23
744,13.98
748,13.86
752,14.02
756,14.08
760,14.55
764,14.55
768,14.54
772,14.62
776,15.02
780,14.91
784,14.89
788,14.69
792,14.71
796,14.18
800,13.99
804,13.82
808,13.56
812,12.75
816,12.34
820,11.98
824,11.67
828,11.25
832,11.21
836,10.54
840,9.91
844,9.31
848,8.94
852,8.27
856,7.73
860,7.35
864,6.88
868,6.16
872,5.28
876,4.35
880,4.35
884,3.49
888,2.82
892,2.67
896,2.58
900,1.87
904,1.21
908,0.75
912,0.44
916,0.15
920,0
924,0.27
928,0.69
932,0.92
936,1.12
940,1.13
944,1.18
948,1.38
952,1.55
956,1.92
960,2.22
964,2.32
968,2.44
972,2.33
976,2.16
980,2.11
984,2.23
988,2.59
992,2.92
996,3.11
1000,3.33
1004,3.46
1008,3.38
1012,3.25
1016,3.21
1020,3.16
1024,3.12
1028,3.01
1032,2.9
1036,2.93
1040,2.78
1044,2.75
1048,2.72
1052,2.67
1056,2.48
1060,2.47
1064,2.57
1068,2.62
1072,2.58
1076,2.64
1080,2.68
1084,2.87
1088,2.92
1092,3.1
1096,3.37
1100,3.4
1104,3.39
1108,3.22
1112,3.1
1116,3.08
1120,3.01
1124,3.03
1128,3.28
1132,3.57
1136,3.96
1140,4.23
1144,4.53
1148,4.74
1152,4.94
1156,5.17
1160,5.35
1164,5.7
1168,6.11
1172,6.44
1176,6.89
1180,7.36
1184,7.87
1188,8.37
1192,8.8
1196,9.27
1200,9.76
1204,10.21
1208,10.72
1212,11.29
1216,11.88
1220,12.54
1224,13.22
1228,13.86
1232,14.42
1236,14.9
1240,15.29
1244,15.68
1248,16.13
1252,16.71
1256,17.42
1260,18.17
1264,18.89
1268,19.59
1272,20.34
1276,21.01
1280,21.61
1284,22.23
1288,22.93
1292,23.67
1296,24.4
1300,25.13
1304,25.87
1308,26.58
1312,27.34
1316,28
1320,28.6
1324,29.17
1328,29.77
1332,30.41
1336,31.14
1340,32
1344,32.98
1348,33.85
1352,34.5
1356,35.05
1360,35.51
1364,35.83
1368,36.19
1372,36.53
1376,36.76
1380,36.8
1384,36.36
1388,35.58
1392,34.6
1396,33.5
1400,32.77
1404,32.65
1408,33.12
1412,34.26
1416,35.75
1420,37.54
1424,39.36
1428,40.85
1432,42
1436,42.85
1440,43.42
1444,43.96
1448,44.54
1452,45.33
1456,46.26
1460,47.15
1464,48.05
1468,48.83
1472,49.38
1476,50.14
1480,50.91
1484,51.7
1488,52.36
1492,52.74
1496,53.16
1500,53.56
1504,53.87
1508,54.5
1512,55.19
1516,55.93
1520,56.46
1524,56.93
1528,57.57
1532,58.25
1536,58.9
1540,59.51
1544,60.07
1548,60.68
1552,61.12
1556,61.62
1560,62.13
1564,62.68
1568,63.24
1572,63.63
1576,64.05
1580,64.69
1584,65.27
1588,65.92
1592,66.53
1596,67.27
1600,67.9
1604,68.34
1608,68.97
1612,69.8
1616,70.63
1620,71.48
1624,72.41
1628,73.31
1632,73.31
1636,73.92
1640,74.31
1644,74.64
1648,75.31
1652,75.79
1656,76.32
1660,77.05
1664,77.57
1668,78.18
1672,78.73
1676,79.42
1680,80.05
1684,80.82
1688,81.51
1692,81.96
1696,82.21
1700,82.59
1704,82.89
1708,83.32
1712,83.85
1716,84.37
1720,84.94
1724,85.38
1728,85.87
1732,86.34
1736,86.64
1740,86.89
1744,86.99
1748,86.7
1752,86.45
1756,86.44
1760,86.53
1764,86.72
1768,87.09
1772,87.55
1776,87.98
1780,88.13
1784,88.22
1788,88.55
1792,88.73
1796,89
1800,89.18
1804,89.5
1808,89.72
1812,89.7
1816,89.81
1820,89.94
1824,90.1
1828,90.05
1832,89.73
1836,89.71
1840,89.59
1844,89.36
1848,88.97
1852,88.57
1856,88.59
1860,88.27
1864,87.68
1868,87.14
1872,86.44
1876,85.63
1880,84.23
1884,82.95
1888,81.76
1892,79.96
1896,77.8
1900,75.84
1904,74.27
1908,73.31
1912,72.46
1916,72.05
1920,71.79
1924,71.47
1928,71.18
1932,71.01
1936,71.08
1940,71.45
1944,71.74
1948,72.2
1952,72.76
1956,73.39
1960,73.89
1964,74.13
1968,74.15
1972,74.3
1976,74.52
1980,74.65
1984,74.86
1988,75.35
1992,75.78
1996,76.3
2000,76.77
2004,77.53
2008,78.46
2012,79.37
2016,80.53
2020,81.92
2024,83.37
2028,85.12
2032,86.84
2036,88.52
2040,90.06
2044,91.5
2048,92.73
2052,93.8
2056,94.91
2060,95.87
2064,96.78
2068,97.56
2072,98.1
2076,98.53
2080,98.95
2084,99.34
2088,99.79
2092,99.92
2096,99.98
2100,100
2104,99.8
2108,99.53
2112,99.36
2116,99.31
2120,99.38
2124,99.34
2128,99.36
2132,99.14
2136,98.58
2140,97.7
2144,96.43
2148,94.95
2152,93.31
2156,91.71
2160,90.42
2164,89.16
2168,88.24
2172,87.24
2176,85.86
2180,84.23
2184,82.23
2188,80.08
2192,77.58
2196,74.56
2200,71.84
2204,69.98
2208,68.72
2212,68.07
2216,67.45
2220,66.43
2224,64.1
2228,60.05
2232,54.9
2236,49.26
2240,43.19
2244,37.93
2248,34.04
2252,32.01
2256,31.7
2260,32.75
2264,34.58
2268,36.2
2272,37.3
2276,37.85
2280,37.75
2284,37.06
2288,35.78
2292,34.11
2296,32.2
2300,30.01
2304,27.87
2308,25.52
2312,23.3
2316,21.17
2320,19.08
2324,17.21
2328,15.67
2332,14.44
2336,13.66
2340,13.12
2344,12.98
2348,13.18
2352,13.62
2356,14.5
2360,15.73
2364,17.25
2368,18.98
2372,20.57
2376,22.01
2380,23.44
2384,24.61
2388,25.64
2392,26.57
2396,27.6
2400,28.3
2404,28.59
2408,28.84
2412,28.81
2416,28.72
2420,28.49
2424,28.15
2428,27.83
2432,27.21
2436,26.49
2440,25.83
2444,24.81
2448,23.96
2452,22.99
2456,21.72
2460,20.48
2464,18.99
2468,18.11
2472,17.44
2476,16.67
