Wavelength (nm),Reflectance (%)
448,0
452,0.34
456,0.36
460,1.06
464,1.07
468,1.15
472,1.64
476,1.79
480,1.87
484,2.04
488,2.33
492,2.65
496,3.04
500,3.54
504,3.92
508,4.51
512,4.56
516,5.21
520,5.87
524,6.49
528,7.17
532,8.12
536,9.44
540,10.8
544,12.32
548,14.34
552,16.72
556,19.47
560,22.35
564,25.39
568,28.89
572,32.25
576,35.67
580,38.96
584,41.98
588,44.62
592,46.79
596,49.08
600,50.82
604,52.11
608,53.79
612,54.91
616,55.54
620,56.31
624,57.24
628,57.95
632,58.22
636,58.53
640,58.66
644,58.95
648,59.81
652,60.06
656,60.17
660,60.9
664,61.3
668,61.8
672,62.32
676,62.75
680,62.91
684,63.17
688,63.67
692,64.33
696,65.01
700,65.31
704,65.32
708,65.69
712,66.25
716,66.62
720,66.89
724,67.3
728,67.6
732,67.79
736,67.77
740,68.11
744,68.4
748,68.31
752,68.48
756,68.05
760,67.42
764,67.52
768,67.72
772,67.61
776,67.46
780,67.23
784,66.72
788,66.54
792,66.53
796,66.45
800,66.26
804,65.85
808,65.26
812,64.78
816,64.76
820,64.65
824,64.14
828,64.14
832,64.41
836,64.23
840,63.91
844,63.58
848,63.25
852,63.19
856,62.95
860,62.62
864,62.49
868,62.59
872,62.63
876,62.66
880,62.66
884,62.31
888,62.26
892,62.08
896,62.06
900,62.26
904,62.24
908,62.91
912,63.23
916,63.51
920,64.14
924,64.59
928,64.96
932,65.4
936,65.97
940,66.6
944,67.09
948,67.56
952,68.14
956,68.46
960,68.88
964,69.47
968,70.12
972,70.75
976,71.62
980,72.31
984,72.93
988,73.46
992,73.99
996,74.48
1000,75.26
1004,75.7
1008,76.01
1012,76.25
1016,76.73
1020,77.02
1024,77.23
1028,77.41
1032,77.73
1036,77.82
1040,78.12
1044,78.36
1048,78.53
1052,78.6
1056,78.77
1060,79.05
1064,79.12
1068,79.19
1072,79.41
1076,79.39
1080,79.67
1084,79.82
1088,79.83
1092,79.99
1096,80.3
1100,80.2
1104,80.25
1108,80.57
1112,80.74
1116,80.68
1120,80.93
1124,81
1128,81.09
1132,81.26
1136,81.11
1140,81.4
1144,81.81
1148,82.05
1152,82.08
1156,82.45
1160,82.55
1164,82.67
1168,83.14
1172,83.37
1176,83.59
1180,84
1184,84.33
1188,84.34
1192,84.47
1196,84.42
1200,84.71
1204,85.02
1208,85.24
1212,85.57
1216,85.58
1220,85.8
1224,86.11
1228,86.23
1232,86.18
1236,85.95
1240,85.85
1244,85.97
1248,86.48
1252,86.94
1256,87.32
1260,87.48
1264,87.76
1268,88.24
1272,88.41
1276,88.31
1280,88.34
1284,88.45
1288,88.43
1292,88.2
1296,88.16
1300,88.22
1304,88.04
1308,87.89
1312,87.96
1316,88.07
1320,88.19
1324,88.12
1328,87.85
1332,87.8
1336,88.06
1340,88.03
1344,87.58
1348,86.47
1352,85.1
1356,84.12
1360,83.86
1364,84.17
1368,84.46
1372,84.17
1376,82.88
1380,80.17
1384,75.59
1388,69.02
1392,62.73
1396,59.63
1400,59.39
1404,59.85
1408,58.21
1412,56.7
1416,60.68
1420,70.35
1424,79.27
1428,83.94
1432,86.75
1436,88.68
1440,89.92
1444,90.87
1448,91.77
1452,92.31
1456,92.54
1460,92.95
1464,93.16
1468,93.45
1472,94
1476,94.43
1480,95.07
1484,95.69
1488,96.05
1492,96.31
1496,96.15
1500,96.57
1504,96.82
1508,97.1
1512,97.24
1516,97.3
1520,97.24
1524,97.47
1528,97.93
1532,98.21
1536,98.5
1540,98.51
1544,98.55
1548,98.6
1552,98.26
1556,97.93
1560,98.19
1564,98.41
1568,98.54
1572,98.65
1576,98.59
1580,98.44
1584,98.51
1588,98.66
1592,98.72
1596,98.76
1600,98.78
1604,98.84
1608,98.99
1612,99
1616,98.99
1620,98.87
1624,98.76
1628,98.76
1632,98.67
1636,98.54
1640,98.69
1644,98.79
1648,98.99
1652,98.99
1656,98.97
1660,98.95
1664,99.02
1668,99.15
1672,99.27
1676,99.22
1680,99.54
1684,99.75
1688,99.85
1692,99.96
1696,100
1700,99.73
1704,99.44
1708,99.32
1712,99.51
1716,99.47
1720,99.49
1724,99.35
1728,98.95
1732,98.98
1736,99.05
1740,99.1
1744,99.04
1748,98.87
1752,98.81
1756,98.95
1760,98.67
1764,98.76
1768,98.66
1772,98.31
1776,98.01
1780,97.94
1784,97.48
1788,97.14
1792,97.06
1796,96.87
1800,96.6
1804,96.31
1808,95.97
1812,95.7
1816,95.7
1820,95.78
1824,95.77
1828,95.94
1832,96.02
1836,95.74
1840,95.79
1844,95.99
1848,96.26
1852,96.51
1856,96.61
1860,96.03
1864,95.37
1868,94.29
1872,92.9
1876,91.26
1880,89.07
1884,86.09
1888,82.33
1892,77.73
1896,72.74
1900,68.01
1904,64.9
1908,63.7
1912,64
1916,65.4
1920,66.97
1924,68.57
1928,69.87
1932,70.95
1936,71.8
1940,72.53
1944,73.37
1948,74.1
1952,74.83
1956,75.55
1960,76.22
1964,76.65
1968,77.07
1972,77.7
1976,78.36
1980,78.89
1984,79.53
1988,79.82
1992,80.35
1996,80.63
2000,81.14
2004,81.76
2008,81.96
2012,82.11
2016,82.47
2020,82.76
2024,83.07
2028,83.36
2032,83.51
2036,83.57
2040,83.84
2044,83.75
2048,83.52
2052,83.39
2056,83.14
2060,82.66
2064,81.99
2068,81.13
2072,80.26
2076,79.36
2080,78.31
2084,77.44
2088,76.81
2092,76.33
2096,75.82
2100,74.98
2104,73.59
2108,71.67
2112,69.59
2116,68.65
2120,67.85
2124,66.81
2128,65.07
2132,62.54
2136,58.92
2140,53.85
2144,47.6
2148,41.31
2152,36.1
2156,32.96
2160,31.57
2164,31.47
2168,32.37
2172,33.4
2176,33.83
2180,33.18
2184,30.97
2188,27.92
2192,24.83
2196,21.42
2200,16.6
2204,12.69
2208,14.2
2212,21.98
2216,31.17
2220,38.53
2224,42.58
2228,44.82
2232,45.76
2236,45.99
2240,45.99
2244,45.98
2248,46.1
2252,46.34
2256,46.57
2260,46.4
2264,46.03
2268,45.2
2272,44.03
2276,42.84
2280,41.73
2284,40.64
2288,39.54
2292,38.41
2296,37.37
2300,35.93
2304,34.08
2308,32.3
2312,30.52
2316,29.29
2320,28.33
2324,27.75
2328,27.63
2332,27.41
2336,26.9
2340,25.99
2344,24.65
2348,23.21
2352,22.14
2356,21.88
2360,21.8
2364,21.73
2368,21.31
2372,20.34
2376,19.21
2380,18.55
2384,18.65
2388,19.22
2392,20.47
2396,21.91
2400,23.06
2404,23.56
2408,23.41
2412,22.84
2416,22.2
2420,21.26
2424,20.09
2428,18.82
2432,17.57
2436,16.38
2440,15.55
2444,14.79
2448,14.48
2452,14.04
2456,14.05
2460,14.1
2464,14.11
2468,14.28
2472,14.4
2476,14.09
2480,13.88
2484,13.73
2488,14.01
2492,14.73
2496,15.49
2500,16.34
